{
  "contexts": [
    {
      "contextType": "ImagingStudy",
      "context": [
        {
          "key": "patient",
          "resource": {
            "resourceType": "Patient",
            "id": "ewUbXT9RWEbSj5wPEdgRaBw3",
            "identifier": [
              {
                "system": "urn:oid:1.2.840.114350",
                "value": "185444"
              }
            ]
          }
        },
        {
          "key": "study",
          "resource": {
            "resourceType": "ImagingStudy",
            "description": "CHEST XRAY",
            "started": "2010-01-30T23:00:00.000Z",
            "status": "available",
            "id": "8i7tbu6fby5ftfbku6fniuf",
            "identifier": [
              {
                "type": {
                  "coding": [
                    {
                      "system": "http://terminology.hl7.org/CodeSystem/v2-0203",
                      "code": "ACSN"
                    }
                  ]
                },
                "value": "342123458"
              }
            ],
            "patient": {
              "reference": "Patient/ewUbXT9RWEbSj5wPEdgRaBw3"
            }
          }
        }
      ]
    },
    {
      "contextType": "DiagnosticReport",
      "context": [
        {
          "key": "patient",
          "resource": {
            "resourceType": "Patient",
            "id": "ewUbXT9RWEbSj5wPEdgRaBw3",
            "identifier": [
              {
                "system": "urn:oid:1.2.840.114350",
                "value": "185444"
              }
            ]
          }
        },
        {
          "key": "study",
          "resource": {
            "resourceType": "ImagingStudy",
            "description": "CHEST XRAY",
            "started": "2010-01-30T23:00:00.000Z",
            "status": "available",
            "id": "8i7tbu6fby5ftfbku6fniuf",
            "identifier": [
              {
                "type": {
                  "coding": [
                    {
                      "system": "http://terminology.hl7.org/CodeSystem/v2-0203",
                      "code": "ACSN"
                    }
                  ]
                },
                "value": "342123458"
              }
            ],
            "patient": {
              "reference": "Patient/ewUbXT9RWEbSj5wPEdgRaBw3"
            }
          }
        },
        {
          "key": "report",
          "resource": {
            "resourceType": "DiagnosticReport",
            "id": "40012366",
            "status": "unknown",
            "imagingStudy": [
              {
                "reference": "ImagingStudy/8i7tbu6fby5ftfbku6fniuf"
              }
            ],
            "contained": [
              {
                "resourceType": "Observation",
                "id": "9450878527",
                "identifier": [
                  {
                    "system": "dcm:121151",
                    "value": "L1"
                  }
                ],
                "status": "preliminary",
                "issued": "2001-07-23T06:02:11-04:00",
                "component": [
                  {
                    "code": {
                      "coding": [
                        {
                          "system": "https://loinc.org",
                          "code": "21889-1",
                          "display": "Distance"
                        }
                      ]
                    },
                    "valueQuantity": {
                      "system": "http://unitsofmeasure.org",
                      "value": "30.3134634578934",
                      "code": "mm",
                      "unit": "mm"
                    }
                  }
                ],
                "category": {
                  "system": "http://terminology.hl7.org/CodeSystem/observation-category",
                  "code": "imaging",
                  "display": "Imaging"
                },
                "code": {
                  "system": "http://hl7.org/fhir/ValueSet/observation-codes",
                  "code": "32449-1",
                  "display": "Physical findings of Lung"
                }
              }
            ]
          }
        }
      ]
    }
  ]
}
